# Response curve for the Gemini NIRI H2O ice 2.04um curve
#  
# Wavelength(micron)  Throughput
0.3     0
1.91025	0.00403
1.9105	0.00419
1.91075	0.00428
1.911	0.00432
1.91125	0.00442
1.9115	0.00467
1.91175	0.00474
1.912	0.0049
1.91225	0.00504
1.9125	0.00527
1.91275	0.00534
1.913	0.00553
1.91325	0.00575
1.9135	0.00593
1.91375	0.00614
1.914	0.00628
1.91425	0.00645
1.9145	0.00664
1.91475	0.00688
1.915	0.00715
1.91525	0.00724
1.9155	0.00756
1.91575	0.00778
1.916	0.008
1.91625	0.00828
1.9165	0.00844
1.91675	0.00877
1.917	0.00898
1.91725	0.00927
1.9175	0.00953
1.91775	0.00977
1.918	0.0101
1.91825	0.01028
1.9185	0.01064
1.91875	0.0109
1.919	0.01125
1.91925	0.01169
1.9195	0.012
1.91975	0.01259
1.92	0.01287
1.92025	0.01344
1.9205	0.01393
1.92075	0.01434
1.921	0.0149
1.92125	0.01531
1.9215	0.01593
1.92175	0.01626
1.922	0.01666
1.92225	0.01718
1.9225	0.01763
1.92275	0.01826
1.923	0.01865
1.92325	0.01931
1.9235	0.01978
1.92375	0.02036
1.924	0.02105
1.92425	0.02163
1.9245	0.02255
1.92475	0.02305
1.925	0.02378
1.92525	0.02437
1.9255	0.02508
1.92575	0.02595
1.926	0.02652
1.92625	0.02748
1.9265	0.02806
1.92675	0.02892
1.927	0.02967
1.92725	0.03059
1.9275	0.03171
1.92775	0.03256
1.928	0.0337
1.92825	0.03454
1.9285	0.03562
1.92875	0.03668
1.929	0.0377
1.92925	0.03909
1.9295	0.04016
1.92975	0.0413
1.93	0.04234
1.93025	0.04361
1.9305	0.04481
1.93075	0.04611
1.931	0.04754
1.93125	0.0487
1.9315	0.05008
1.93175	0.05134
1.932	0.05289
1.93225	0.05453
1.9325	0.05593
1.93275	0.05776
1.933	0.05916
1.93325	0.06087
1.9335	0.06268
1.93375	0.06439
1.934	0.06633
1.93425	0.06804
1.9345	0.07011
1.93475	0.07198
1.935	0.07395
1.93525	0.07613
1.9355	0.07835
1.93575	0.08039
1.936	0.0826
1.93625	0.08504
1.9365	0.0874
1.93675	0.08988
1.937	0.09237
1.93725	0.09505
1.9375	0.09761
1.93775	0.10042
1.938	0.10342
1.93825	0.10639
1.9385	0.1095
1.93875	0.11241
1.939	0.11576
1.93925	0.11879
1.9395	0.12263
1.93975	0.12635
1.94	0.12973
1.94025	0.13368
1.9405	0.13722
1.94075	0.14135
1.941	0.145
1.94125	0.14942
1.9415	0.15399
1.94175	0.15779
1.942	0.1627
1.94225	0.16697
1.9425	0.17183
1.94275	0.17643
1.943	0.18186
1.94325	0.18743
1.9435	0.19212
1.94375	0.19819
1.944	0.20364
1.94425	0.20988
1.9445	0.21593
1.94475	0.22239
1.945	0.22939
1.94525	0.23588
1.9455	0.24237
1.94575	0.24937
1.946	0.25636
1.94625	0.26405
1.9465	0.27149
1.94675	0.2796
1.947	0.28702
1.94725	0.29483
1.9475	0.30373
1.94775	0.31236
1.948	0.32109
1.94825	0.3314
1.9485	0.33971
1.94875	0.34866
1.949	0.35914
1.94925	0.36871
1.9495	0.3796
1.94975	0.38921
1.95	0.39982
1.95025	0.41019
1.9505	0.41988
1.95075	0.4317
1.951	0.44283
1.95125	0.45471
1.9515	0.46512
1.95175	0.47712
1.952	0.48811
1.95225	0.4994
1.9525	0.51284
1.95275	0.52432
1.953	0.53785
1.95325	0.54835
1.9535	0.56091
1.95375	0.57379
1.954	0.58482
1.95425	0.59952
1.9545	0.61074
1.95475	0.62358
1.955	0.63528
1.95525	0.64656
1.9555	0.65948
1.95575	0.67017
1.956	0.68281
1.95625	0.69394
1.9565	0.70455
1.95675	0.71623
1.957	0.72679
1.95725	0.7386
1.9575	0.74751
1.95775	0.75923
1.958	0.76793
1.95825	0.77708
1.9585	0.78743
1.95875	0.79566
1.959	0.80558
1.95925	0.81283
1.9595	0.82116
1.95975	0.82927
1.96	0.83573
1.96025	0.84359
1.9605	0.85011
1.96075	0.85653
1.961	0.8624
1.96125	0.86782
1.9615	0.87322
1.96175	0.87852
1.962	0.88314
1.96225	0.88764
1.9625	0.89215
1.96275	0.89531
1.963	0.89921
1.96325	0.90249
1.9635	0.90522
1.96375	0.90844
1.964	0.91051
1.96425	0.91312
1.9645	0.91492
1.96475	0.91644
1.965	0.91853
1.96525	0.91995
1.9655	0.92088
1.96575	0.92242
1.966	0.9229
1.96625	0.92363
1.9665	0.92482
1.96675	0.92478
1.967	0.92535
1.96725	0.92598
1.9675	0.92572
1.96775	0.92626
1.968	0.9264
1.96825	0.92625
1.9685	0.9268
1.96875	0.92609
1.969	0.92607
1.96925	0.92605
1.9695	0.92561
1.96975	0.92573
1.97	0.9251
1.97025	0.92489
1.9705	0.92494
1.97075	0.92457
1.971	0.92431
1.97125	0.92424
1.9715	0.9238
1.97175	0.92388
1.972	0.9235
1.97225	0.9229
1.9725	0.92331
1.97275	0.92258
1.973	0.92226
1.97325	0.92282
1.9735	0.92208
1.97375	0.92206
1.974	0.92255
1.97425	0.92215
1.9745	0.92229
1.97475	0.9221
1.975	0.92215
1.97525	0.92264
1.9755	0.92214
1.97575	0.92207
1.976	0.92315
1.97625	0.92255
1.9765	0.92304
1.97675	0.92336
1.977	0.92336
1.97725	0.92415
1.9775	0.9239
1.97775	0.92419
1.978	0.92537
1.97825	0.92477
1.9785	0.92534
1.97875	0.92548
1.979	0.92595
1.97925	0.92697
1.9795	0.92691
1.97975	0.92694
1.98	0.92813
1.98025	0.92799
1.9805	0.9284
1.98075	0.92928
1.981	0.9291
1.98125	0.92966
1.9815	0.92985
1.98175	0.93022
1.982	0.93089
1.98225	0.93104
1.9825	0.93167
1.98275	0.9322
1.983	0.93215
1.98325	0.93277
1.9835	0.93331
1.98375	0.9332
1.984	0.93389
1.98425	0.93378
1.9845	0.93428
1.98475	0.93465
1.985	0.93492
1.98525	0.93502
1.9855	0.93544
1.98575	0.93536
1.986	0.93601
1.98625	0.93588
1.9865	0.93562
1.98675	0.93636
1.987	0.9359
1.98725	0.93598
1.9875	0.93634
1.98775	0.9359
1.988	0.93657
1.98825	0.93627
1.9885	0.9363
1.98875	0.93669
1.989	0.93619
1.98925	0.936
1.9895	0.93611
1.98975	0.93554
1.99	0.936
1.99025	0.93578
1.9905	0.9354
1.99075	0.93563
1.991	0.93509
1.99125	0.93476
1.9915	0.9351
1.99175	0.93445
1.992	0.93453
1.99225	0.93412
1.9925	0.93345
1.99275	0.93374
1.993	0.93327
1.99325	0.93274
1.9935	0.93295
1.99375	0.93244
1.994	0.93218
1.99425	0.93196
1.9945	0.93118
1.99475	0.9313
1.995	0.93106
1.99525	0.9301
1.9955	0.93027
1.99575	0.92967
1.996	0.92936
1.99625	0.92955
1.9965	0.92847
1.99675	0.9288
1.997	0.92828
1.99725	0.92768
1.9975	0.92797
1.99775	0.92738
1.998	0.92706
1.99825	0.92713
1.9985	0.92623
1.99875	0.92623
1.999	0.92619
1.99925	0.92548
1.9995	0.92559
1.99975	0.92545
2	0.92461
2.00025	0.92487
2.0005	0.92464
2.00075	0.92451
2.001	0.92466
2.00125	0.92422
2.0015	0.92433
2.00175	0.92396
2.002	0.92358
2.00225	0.92396
2.0025	0.9237
2.00275	0.92317
2.003	0.92339
2.00325	0.92367
2.0035	0.92338
2.00375	0.92373
2.004	0.92327
2.00425	0.92376
2.0045	0.92367
2.00475	0.92356
2.005	0.92392
2.00525	0.92353
2.0055	0.9232
2.00575	0.92415
2.006	0.92375
2.00625	0.92424
2.0065	0.92461
2.00675	0.92443
2.007	0.92478
2.00725	0.9249
2.0075	0.9247
2.00775	0.92554
2.008	0.92489
2.00825	0.92553
2.0085	0.92559
2.00875	0.92584
2.009	0.9261
2.00925	0.92681
2.0095	0.9266
2.00975	0.92734
2.01	0.92748
2.01025	0.92776
2.0105	0.92831
2.01075	0.92798
2.011	0.92821
2.01125	0.92916
2.0115	0.9287
2.01175	0.92952
2.012	0.92977
2.01225	0.92994
2.0125	0.93045
2.01275	0.9307
2.013	0.93123
2.01325	0.93161
2.0135	0.93159
2.01375	0.93219
2.014	0.93237
2.01425	0.93239
2.0145	0.93312
2.01475	0.93303
2.015	0.93363
2.01525	0.93433
2.0155	0.93418
2.01575	0.93442
2.016	0.93515
2.01625	0.93505
2.0165	0.93603
2.01675	0.93612
2.017	0.93586
2.01725	0.9368
2.0175	0.93603
2.01775	0.93691
2.018	0.93744
2.01825	0.93725
2.0185	0.93791
2.01875	0.93781
2.019	0.93825
2.01925	0.9387
2.0195	0.93857
2.01975	0.93892
2.02	0.93928
2.02025	0.93866
2.0205	0.93938
2.02075	0.93965
2.021	0.93914
2.02125	0.93998
2.0215	0.93955
2.02175	0.93999
2.022	0.94027
2.02225	0.93986
2.0225	0.94036
2.02275	0.94034
2.023	0.94028
2.02325	0.94052
2.0235	0.94059
2.02375	0.94041
2.024	0.94077
2.02425	0.94036
2.0245	0.94083
2.02475	0.94093
2.025	0.94054
2.02525	0.94096
2.0255	0.94066
2.02575	0.93994
2.026	0.94057
2.02625	0.94019
2.0265	0.94026
2.02675	0.9403
2.027	0.93985
2.02725	0.94021
2.0275	0.93991
2.02775	0.93928
2.028	0.94002
2.02825	0.93918
2.0285	0.93904
2.02875	0.93968
2.029	0.93874
2.02925	0.93906
2.0295	0.93881
2.02975	0.93832
2.03	0.93842
2.03025	0.938
2.0305	0.93803
2.03075	0.93796
2.031	0.93738
2.03125	0.93749
2.0315	0.93731
2.03175	0.93655
2.032	0.93671
2.03225	0.93628
2.0325	0.93618
2.03275	0.93614
2.033	0.9356
2.03325	0.93534
2.0335	0.93546
2.03375	0.93472
2.034	0.93486
2.03425	0.93439
2.0345	0.93364
2.03475	0.9342
2.035	0.93366
2.03525	0.93333
2.0355	0.93354
2.03575	0.9327
2.036	0.93296
2.03625	0.93247
2.0365	0.93194
2.03675	0.9322
2.037	0.93164
2.03725	0.93119
2.0375	0.93148
2.03775	0.93072
2.038	0.93075
2.03825	0.93099
2.0385	0.93008
2.03875	0.93049
2.039	0.92984
2.03925	0.92951
2.0395	0.92987
2.03975	0.929
2.04	0.92923
2.04025	0.92916
2.0405	0.92842
2.04075	0.92896
2.041	0.92842
2.04125	0.92827
2.0415	0.9282
2.04175	0.92775
2.042	0.92761
2.04225	0.92791
2.0425	0.9276
2.04275	0.92725
2.043	0.92732
2.04325	0.92682
2.0435	0.92716
2.04375	0.92704
2.044	0.92681
2.04425	0.92713
2.0445	0.92651
2.04475	0.92674
2.045	0.92681
2.04525	0.92645
2.0455	0.92639
2.04575	0.92648
2.046	0.92624
2.04625	0.92642
2.0465	0.92606
2.04675	0.92634
2.047	0.92641
2.04725	0.92589
2.0475	0.92623
2.04775	0.92614
2.048	0.92602
2.04825	0.92656
2.0485	0.92618
2.04875	0.92634
2.049	0.92638
2.04925	0.9261
2.0495	0.92637
2.04975	0.92659
2.05	0.92636
2.05025	0.92675
2.0505	0.92651
2.05075	0.92654
2.051	0.92685
2.05125	0.92632
2.0515	0.92676
2.05175	0.92683
2.052	0.92659
2.05225	0.92722
2.0525	0.9271
2.05275	0.9271
2.053	0.92735
2.05325	0.92734
2.0535	0.92744
2.05375	0.92796
2.054	0.92746
2.05425	0.92751
2.0545	0.92781
2.05475	0.92748
2.055	0.9279
2.05525	0.92768
2.0555	0.92783
2.05575	0.92814
2.056	0.92799
2.05625	0.92822
2.0565	0.92821
2.05675	0.92782
2.057	0.92851
2.05725	0.9284
2.0575	0.9285
2.05775	0.92882
2.058	0.92835
2.05825	0.92869
2.0585	0.92858
2.05875	0.92836
2.059	0.92858
2.05925	0.92859
2.0595	0.92852
2.05975	0.92876
2.06	0.92847
2.06025	0.92823
2.0605	0.92856
2.06075	0.92844
2.061	0.92872
2.06125	0.92861
2.0615	0.92815
2.06175	0.92838
2.062	0.92807
2.06225	0.92805
2.0625	0.92794
2.06275	0.92743
2.063	0.92746
2.06325	0.92736
2.0635	0.92713
2.06375	0.9274
2.064	0.92716
2.06425	0.92628
2.0645	0.92658
2.06475	0.92613
2.065	0.9259
2.06525	0.92594
2.0655	0.92547
2.06575	0.92554
2.066	0.92477
2.06625	0.92427
2.0665	0.92464
2.06675	0.92404
2.067	0.92347
2.06725	0.92343
2.0675	0.92283
2.06775	0.92277
2.068	0.92234
2.06825	0.92152
2.0685	0.9214
2.06875	0.92091
2.069	0.92027
2.06925	0.92009
2.0695	0.91938
2.06975	0.91927
2.07	0.91861
2.07025	0.91791
2.0705	0.9175
2.07075	0.91686
2.071	0.91614
2.07125	0.91593
2.0715	0.91534
2.07175	0.91438
2.072	0.91395
2.07225	0.91303
2.0725	0.91242
2.07275	0.91226
2.073	0.91132
2.07325	0.91111
2.0735	0.90997
2.07375	0.90918
2.074	0.90894
2.07425	0.90751
2.0745	0.90733
2.07475	0.90649
2.075	0.90597
2.07525	0.90564
2.0755	0.9045
2.07575	0.9039
2.076	0.90372
2.07625	0.90234
2.0765	0.90182
2.07675	0.90135
2.077	0.90024
2.07725	0.89991
2.0775	0.89899
2.07775	0.89836
2.078	0.89786
2.07825	0.8972
2.0785	0.89646
2.07875	0.89587
2.079	0.89505
2.07925	0.89446
2.0795	0.89382
2.07975	0.89301
2.08	0.89261
2.08025	0.89181
2.0805	0.89098
2.08075	0.89077
2.081	0.88986
2.08125	0.88976
2.0815	0.8888
2.08175	0.88836
2.082	0.88779
2.08225	0.88729
2.0825	0.88691
2.08275	0.88658
2.083	0.88603
2.08325	0.8854
2.0835	0.88502
2.08375	0.88438
2.084	0.88432
2.08425	0.88389
2.0845	0.88325
2.08475	0.8834
2.085	0.88264
2.08525	0.88268
2.0855	0.88248
2.08575	0.88197
2.086	0.88211
2.08625	0.88166
2.0865	0.88166
2.08675	0.88149
2.087	0.88139
2.08725	0.88122
2.0875	0.88137
2.08775	0.88116
2.088	0.88145
2.08825	0.88172
2.0885	0.88156
2.08875	0.88183
2.089	0.88162
2.08925	0.88193
2.0895	0.88223
2.08975	0.88235
2.09	0.88276
2.09025	0.88326
2.0905	0.88332
2.09075	0.88389
2.091	0.88438
2.09125	0.88438
2.0915	0.8853
2.09175	0.8854
2.092	0.88634
2.09225	0.8868
2.0925	0.88689
2.09275	0.88808
2.093	0.88859
2.09325	0.88925
2.0935	0.89013
2.09375	0.89062
2.094	0.8914
2.09425	0.89214
2.0945	0.89303
2.09475	0.89371
2.095	0.89495
2.09525	0.89536
2.0955	0.89663
2.09575	0.89743
2.096	0.89798
2.09625	0.89966
2.0965	0.8999
2.09675	0.90136
2.097	0.90174
2.09725	0.90247
2.0975	0.90403
2.09775	0.9047
2.098	0.90564
2.09825	0.90656
2.0985	0.90748
2.09875	0.90853
2.099	0.90964
2.09925	0.91027
2.0995	0.91141
2.09975	0.91223
2.1	0.91253
2.10025	0.91399
2.1005	0.91418
2.10075	0.91497
2.101	0.91578
2.10125	0.91598
2.1015	0.91671
2.10175	0.91732
2.102	0.91748
2.10225	0.91799
2.1025	0.91812
2.10275	0.91795
2.103	0.91819
2.10325	0.91787
2.1035	0.91794
2.10375	0.91769
2.104	0.91681
2.10425	0.91692
2.1045	0.91581
2.10475	0.91511
2.105	0.91427
2.10525	0.91303
2.1055	0.91216
2.10575	0.91064
2.106	0.90825
2.10625	0.90695
2.1065	0.90474
2.10675	0.90243
2.107	0.90056
2.10725	0.89751
2.1075	0.89527
2.10775	0.89233
2.108	0.88846
2.10825	0.88572
2.1085	0.88179
2.10875	0.87733
2.109	0.87338
2.10925	0.86951
2.1095	0.86451
2.10975	0.85972
2.11	0.85486
2.11025	0.8494
2.1105	0.84389
2.11075	0.83766
2.111	0.83217
2.11125	0.82535
2.1115	0.81889
2.11175	0.81249
2.112	0.80499
2.11225	0.79788
2.1125	0.79034
2.11275	0.78256
2.113	0.77515
2.11325	0.76646
2.1135	0.75862
2.11375	0.75016
2.114	0.74104
2.11425	0.73173
2.1145	0.72318
2.11475	0.71387
2.115	0.70431
2.11525	0.69532
2.1155	0.68567
2.11575	0.67547
2.116	0.66547
2.11625	0.65523
2.1165	0.64578
2.11675	0.63495
2.117	0.62538
2.11725	0.61525
2.1175	0.60435
2.11775	0.59446
2.118	0.58382
2.11825	0.57372
2.1185	0.56371
2.11875	0.5536
2.119	0.54244
2.11925	0.53235
2.1195	0.52267
2.11975	0.5125
2.12	0.50187
2.12025	0.49161
2.1205	0.48191
2.12075	0.47108
2.121	0.46123
2.12125	0.45227
2.1215	0.44271
2.12175	0.43259
2.122	0.42333
2.12225	0.41427
2.1225	0.40442
2.12275	0.3953
2.123	0.38681
2.12325	0.37877
2.1235	0.36922
2.12375	0.36056
2.124	0.35263
2.12425	0.34388
2.1245	0.33593
2.12475	0.3281
2.125	0.32078
2.12525	0.31286
2.1255	0.30485
2.12575	0.29811
2.126	0.29033
2.12625	0.28335
2.1265	0.27672
2.12675	0.26986
2.127	0.26293
2.12725	0.2564
2.1275	0.25049
2.12775	0.24367
2.128	0.23822
2.12825	0.23232
2.1285	0.22636
2.12875	0.22056
2.129	0.21474
2.12925	0.21014
2.1295	0.20421
2.12975	0.19933
2.13	0.19454
2.13025	0.18937
2.1305	0.18446
2.13075	0.17981
2.131	0.1757
2.13125	0.17103
2.1315	0.16685
2.13175	0.16284
2.132	0.15851
2.13225	0.15461
2.1325	0.15066
2.13275	0.14706
2.133	0.14305
2.13325	0.13974
2.1335	0.13631
2.13375	0.13255
2.134	0.12955
2.13425	0.12613
2.1345	0.12304
2.13475	0.11983
2.135	0.11684
2.13525	0.11416
2.1355	0.11087
2.13575	0.10827
2.136	0.10558
2.13625	0.103
2.1365	0.1002
2.13675	0.09769
2.137	0.09543
2.13725	0.09284
2.1375	0.09071
2.13775	0.08845
2.138	0.08619
2.13825	0.08401
2.1385	0.08181
2.13875	0.07998
2.139	0.07801
2.13925	0.07619
2.1395	0.07429
2.13975	0.07225
2.14	0.07051
2.14025	0.06879
2.1405	0.06719
2.14075	0.0655
2.141	0.06398
2.14125	0.06246
2.1415	0.06074
2.14175	0.05926
2.142	0.05796
2.14225	0.05661
2.1425	0.05518
2.14275	0.05377
2.143	0.05253
2.14325	0.05122
2.1435	0.04998
2.14375	0.04881
2.144	0.04764
2.14425	0.04654
2.1445	0.04529
2.14475	0.04426
2.145	0.04312
2.14525	0.04216
2.1455	0.04124
2.14575	0.04014
2.146	0.03922
2.14625	0.03814
2.1465	0.03732
2.14675	0.03648
2.147	0.03552
2.14725	0.03479
2.1475	0.03387
2.14775	0.03305
2.148	0.03222
2.14825	0.03147
2.1485	0.03069
2.14875	0.02996
2.149	0.02927
2.14925	0.02859
2.1495	0.02789
2.14975	0.02723
2.15	0.02651
2.15025	0.02598
2.1505	0.02528
2.15075	0.02471
2.151	0.0241
2.15125	0.02353
2.1515	0.02296
2.15175	0.02252
2.152	0.02189
2.15225	0.02137
2.1525	0.02089
2.15275	0.02042
2.153	0.01989
2.15325	0.01953
2.1535	0.01909
2.15375	0.01846
2.154	0.01812
2.15425	0.01777
2.1545	0.01734
2.15475	0.01691
2.155	0.01652
2.15525	0.01612
2.1555	0.01566
2.15575	0.01539
2.156	0.015
2.15625	0.01465
2.1565	0.01437
2.15675	0.01406
2.157	0.01368
2.15725	0.01337
2.1575	0.01303
2.15775	0.01281
2.158	0.01249
2.15825	0.01208
2.1585	0.01196
2.15875	0.01159
2.159	0.01138
2.15925	0.01116
2.1595	0.01081
2.15975	0.01067
2.16	0.01043
2.16025	0.01022
2.1605	0.00992
2.16075	0.0097
2.161	0.00952
2.16125	0.0093
2.1615	0.00899
2.16175	0.0089
2.162	0.00862
2.16225	0.00842
2.1625	0.00827
2.16275	0.00807
2.163	0.00794
2.16325	0.00773
2.1635	0.00754
2.16375	0.0074
2.164	0.00724
2.16425	0.00706
2.1645	0.00696
2.16475	0.00678
2.165	0.00662
2.16525	0.00654
2.1655	0.00634
2.16575	0.00619
2.166	0.00613
2.16625	0.0059
2.1665	0.00586
2.16675	0.00571
2.167	0.00551
2.16725	0.00542
2.1675	0.00537
2.16775	0.00522
2.168	0.00502
2.16825	0.00496
2.1685	0.005
2.16875	0.00485
2.169	0.00464
2.16925	0.00458
2.1695	0.00456
2.16975	0.00441
2.17	0.00429
2.17025	0.00423
2.1705	0.00417
2.17075	0.00408
2.171	0.00401
3  0